Al Density=2.6989 Thickness=2200. microns
 Photon Energy (eV), Transmission
    10.000      0.00000    
    309.90      0.00000    
    609.80      0.00000    
    909.70      0.00000    
    1209.6      0.00000    
    1509.5      0.00000    
    1809.4      0.00000    
    2109.3      0.00000    
    2409.2      0.00000    
    2709.1      0.00000    
    3009.0      0.00000    
    3308.9      0.00000    
    3608.8      0.00000    
    3908.7      0.00000    
    4208.6      0.00000    
    4508.5      0.00000    
    4808.4      0.00000    
    5108.3      0.00000    
    5408.2      0.43113E-38
    5708.1      0.14356E-32
    6008.0      0.46967E-28
    6307.9      0.25001E-24
    6607.8      0.31680E-21
    6907.7      0.12718E-18
    7207.6      0.20194E-16
    7507.5      0.15075E-14
    7807.4      0.60552E-13
    8107.3      0.14566E-11
    8407.2      0.22871E-10
    8707.1      0.25117E-09
    9007.0      0.20396E-08
    9306.9      0.12830E-07
    9606.8      0.64865E-07
    9906.7      0.27216E-06
    10207.      0.97285E-06
    10507.      0.30268E-05
    10806.      0.83488E-05
    11106.      0.20733E-04
    11406.      0.46985E-04
    11706.      0.98222E-04
    12006.      0.19130E-03
    12306.      0.34997E-03
    12606.      0.60569E-03
    12906.      0.99795E-03
    13206.      0.15737E-02
    13505.      0.23862E-02
    13805.      0.34937E-02
    14105.      0.49568E-02
    14405.      0.68363E-02
    14705.      0.91912E-02
    15005.      0.12075E-01
    15305.      0.15541E-01
    15605.      0.19628E-01
    15905.      0.24367E-01
    16205.      0.29779E-01
    16504.      0.35879E-01
    16804.      0.42670E-01
    17104.      0.50146E-01
    17404.      0.58292E-01
    17704.      0.67085E-01
    18004.      0.76500E-01
    18304.      0.86500E-01
    18604.      0.97049E-01
    18904.      0.10810    
    19204.      0.11962    
    19504.      0.13155    
    19803.      0.14386    
    20103.      0.15657    
    20403.      0.16949    
    20703.      0.18263    
    21003.      0.19595    
    21303.      0.20941    
    21603.      0.22296    
    21903.      0.23657    
    22203.      0.25020    
    22502.      0.26382    
    22802.      0.27741    
    23102.      0.29092    
    23402.      0.30435    
    23702.      0.31766    
    24002.      0.33084    
    24302.      0.34387    
    24602.      0.35673    
    24902.      0.36941    
    25202.      0.38190    
    25501.      0.39419    
    25801.      0.40626    
    26101.      0.41812    
    26401.      0.42976    
    26701.      0.44116    
    27001.      0.45233    
    27301.      0.46327    
    27601.      0.47397    
    27901.      0.48444    
    28201.      0.49466    
    28500.      0.50466    
    28800.      0.51441    
    29100.      0.52394    
    29400.      0.53323    
    29700.      0.54230    
    30000.      0.55113 
